#Rx
# X(m), Y(m), Z(m), Distance(m), Power (dBm) Phase (deg)
1 764.427 490.104 38.3179 65.0088 -98.284 124.041
2 753.015 594.716 39.9314 41.0049 -89.4044 1.62305
3 748.675 637.846 40.0241 84.1579 -96.1158 157.601
4 760.731 523.322 38.2667 31.9898 -85.1904 40.7217
5 766.758 448.982 38.6295 105.926 -101.043 -12.3594
6 749.346 616.61 40.2183 62.951 -99.2262 -165.856
7 754.073 574.075 39.6942 20.6575 -82.8081 0.034758
8 762.58 506.964 38.2923 48.1857 -91.9449 126.272
9 766.361 467.264 38.3447 87.8016 -101.793 -149.439
10 759.916 544.27 38.8776 12.6734 -81.9302 -43.7161
