#Rx
# X(m), Y(m), Z(m), Distance(m), Power (dBm) Phase (deg)
1 764.427 490.104 38.3179 65.0088 -102.373 86.586
2 753.015 594.716 39.9314 41.0049 -93.6992 -93.7512
3 748.675 637.846 40.0241 84.1579 -103.36 148.98
4 760.731 523.322 38.2667 31.9898 -93.7885 -128.277
5 766.758 448.982 38.6295 105.926 -101.01 130.675
6 749.346 616.61 40.2183 62.951 -101.717 -18.5155
7 754.073 574.075 39.6942 20.6575 -90.8992 109.087
8 762.58 506.964 38.2923 48.1857 -91.3966 40.1215
9 766.361 467.264 38.3447 87.8016 -100.26 -56.5425
10 759.916 544.27 38.8776 12.6734 -94.7675 -64.6592
