#Rx
# X(m), Y(m), Z(m), Distance(m), Power (dBm) Phase (deg)
1 764.427 490.104 38.3179 65.0088 -95.5423 124.139
2 753.015 594.716 39.9314 41.0049 -90.3365 6.5345
3 748.675 637.846 40.0241 84.1579 -94.0584 160.65
4 760.731 523.322 38.2667 31.9898 -86.6264 49.147
5 766.758 448.982 38.6295 105.926 -100.413 -10.2533
6 749.346 616.61 40.2183 62.951 -95.5711 -166.065
7 754.073 574.075 39.6942 20.6575 -82.3307 2.58316
8 762.58 506.964 38.2923 48.1857 -92.1521 120.555
9 766.361 467.264 38.3447 87.8016 -98.9787 -148.697
10 759.916 544.27 38.8776 12.6734 -80.304 -48.2442
