#Rx
# X(m), Y(m), Z(m), Distance(m), Power (dBm) Phase (deg)
1 764.427 490.104 38.3179 65.0088 -102.322 84.5146
2 753.015 594.716 39.9314 41.0049 -94.6578 -103.281
3 748.675 637.846 40.0241 84.1579 -103.613 132.317
4 760.731 523.322 38.2667 31.9898 -91.9356 -138.072
5 766.758 448.982 38.6295 105.926 -101.689 137.017
6 749.346 616.61 40.2183 62.951 -101.952 -7.81454
7 754.073 574.075 39.6942 20.6575 -94.5233 80.4701
8 762.58 506.964 38.2923 48.1857 -91.3603 35.2183
9 766.361 467.264 38.3447 87.8016 -102.561 -53.8581
10 759.916 544.27 38.8776 12.6734 -90.9856 -98.9449
